{
  "resourceType": "Bundle",
  "id": "Bundle-CLINS-PCS-Example-01",
  "meta": {
    "lastUpdated": "2024-07-07T10:00:00+09:00",
    "profile": [
      "http://jpfhir.jp/fhir/clins/StructureDefinition/JP_Bundle_ePCS"
    ]
  },
  "type": "document",
  "identifier": {
    "system": "http://jpfhir.jp/fhir/clins/bundle-identifier",
    "value": "1318814790^2024^0123-PCS-203949583949"
  },
  "language": "ja",
  "timestamp": "2024-07-07T10:00:00+09:00",
  "entry": [
    {
      "fullUrl": "urn:uuid:830ec2d1-67a7-427e-b6fe-ad0eb29da7fb",
      "resource": {
        "resourceType": "Composition",
        "id": "compositionPCSExample01Inline",
        "meta": {
          "lastUpdated": "2024-07-07T10:00:00+09:00",
          "profile": [
            "http://jpfhir.jp/fhir/ePCS/StructureDefinition/JP_Composition_ePCS"
          ]
        },
        "status": "final",
        "title": "患者サマリー（療養計画書）",
        "extension": [
          {
            "url": "http://hl7.org/fhir/StructureDefinition/composition-clinicaldocument-versionNumber",
            "valueString": "1.0"
          }
        ],
        "identifier": {
          "system": "http://jpfhir.jp/fhir/core/IdSystem/resourceInstance-identifier",
          "value": "1311234567-2021-12345678"
        },
        "type": {
          "coding": [
            {
              "code": "56447-6",
              "system": "http://jpfhir.jp/fhir/Common/CodeSystem/doc-typecodes",
              "display": "計画書"
            }
          ]
        },
        "category": [
          {
            "coding": [
              {
                "system": "http://jpfhir.jp/fhir/Common/CodeSystem/doc-subtypecodes",
                "code": "OUTPATIENT",
                "display": "外来文書"
              }
            ]
          }
        ],
        "section": [
          {
            "title": "計画サマリー",
            "code": {
              "coding": [
                {
                  "system": "http://jpfhir.jp/fhir/clins/CodeSystem/document-section",
                  "code": "422",
                  "display": "計画サマリーセクション"
                }
              ]
            },
            "entry": [
              {
                "reference": "urn:uuid:6399da0f-77c7-4eb9-fd93-4559d39f1beb"
              },
              {
                "reference": "urn:uuid:54b73122-69e7-6864-d6b2-eb8dbf372e65"
              }
            ]
          }
        ],
        "language": "ja",
        "subject": {
          "reference": "urn:uuid:0a48a4bf-0d87-4efb-aafd-d45e0842a4dd",
          "type": "Patient",
          "display": "患者　Patientリソース"
        },
        "encounter": {
          "reference": "urn:uuid:7cad1f19-3435-451d-9a71-a81b61f3358e",
          "type": "Encounter",
          "display": "受診　Encounterリソース"
        },
        "date": "2024-07-07T12:12:20+09:00",
        "author": [
          {
            "reference": "urn:uuid:22212c2d-4837-fd90-c6c5-6ee2a4b7eed2",
            "type": "Practitioner",
            "display": "患者療養計画サマリー作成者　Practitionerリソース"
          },
          {
            "reference": "urn:uuid:ee271941-92f0-07cf-7b6e-db8ce65c9543",
            "type": "Organization",
            "display": "患者療養計画サマリー作成機関と診療科　Organizationリソース"
          }
        ]
      }
    },
    {
      "fullUrl": "urn:uuid:0a48a4bf-0d87-4efb-aafd-d45e0842a4dd",
      "resource": {
        "resourceType": "Patient",
        "id": "Example-JP-Patient-eCS-MAKINOInline",
        "meta": {
          "lastUpdated": "2021-11-26T10:00:00+09:00",
          "profile": [
            "http://jpfhir.jp/fhir/eCS/StructureDefinition/JP_Patient_eCS"
          ]
        },
        "language": "ja",
        "identifier": [
          {
            "system": "urn:oid:1.2.392.100495.20.3.51.11318814790",
            "value": "000999739"
          },
          {
            "system": "http://jpfhir.jp/fhir/clins/Idsystem/JP_Insurance_memberID",
            "value": "00012345:あいう:１８７:05"
          }
        ],
        "active": true,
        "name": [
          {
            "extension": [
              {
                "url": "http://hl7.org/fhir/StructureDefinition/iso21090-EN-representation",
                "valueCode": "IDE"
              }
            ],
            "text": "牧野 爛漫",
            "family": "牧野",
            "given": [
              "爛漫"
            ]
          },
          {
            "extension": [
              {
                "url": "http://hl7.org/fhir/StructureDefinition/iso21090-EN-representation",
                "valueCode": "SYL"
              }
            ],
            "text": "マキノ ランマン",
            "family": "マキノ",
            "given": [
              "ランマン"
            ]
          }
        ],
        "telecom": [
          {
            "system": "phone",
            "value": "03-123-1234",
            "use": "home",
            "rank": 1
          }
        ],
        "gender": "female",
        "birthDate": "1930-06-28",
        "address": [
          {
            "text": "高知県高知市五台山4200-6",
            "postalCode": "781-8125",
            "city": "高知市",
            "state": "高知県"
          }
        ],
        "contact": [
          {
            "telecom": [
              {
                "system": "phone",
                "value": "03-0123-4545   99991",
                "use": "work",
                "rank": 2
              }
            ]
          }
        ]
      }
    },
    {
      "fullUrl": "urn:uuid:22212c2d-4837-fd90-c6c5-6ee2a4b7eed2",
      "resource": {
        "resourceType": "Practitioner",
        "id": "Example-JP-Practitioner-eCS-PCS-Author-Inline",
        "meta": {
          "lastUpdated": "2024-07-07T10:00:00+09:00",
          "profile": [
            "http://jpfhir.jp/fhir/eCS/StructureDefinition/JP_Practitioner_eCS"
          ]
        },
        "identifier": [
          {
            "system": "urn:oid:1.2.392.100495.20.3.41.11311234567",
            "value": "U4403020"
          }
        ],
        "name": [
          {
            "extension": [
              {
                "url": "http://hl7.org/fhir/StructureDefinition/iso21090-EN-representation",
                "valueCode": "IDE"
              }
            ],
            "use": "official",
            "text": "石川 さおり",
            "family": "石川",
            "given": [
              "さおり"
            ]
          },
          {
            "extension": [
              {
                "url": "http://hl7.org/fhir/StructureDefinition/iso21090-EN-representation",
                "valueCode": "SYL"
              }
            ],
            "use": "official",
            "text": "イシカワ サオリ",
            "family": "イシカワ",
            "given": [
              "サオリ"
            ]
          }
        ]
      }
    },
    {
      "fullUrl": "urn:uuid:ee271941-92f0-07cf-7b6e-db8ce65c9543",
      "resource": {
        "resourceType": "Organization",
        "id": "Example-JP-Org-eCS-InstWithDepartment-Inline",
        "meta": {
          "lastUpdated": "2024-07-07T10:00:00+09:00",
          "profile": [
            "http://jpfhir.jp/fhir/eCS/StructureDefinition/JP_Organization_eCS"
          ]
        },
        "identifier": [
          {
            "system": "http://jpfhir.jp/fhir/core/IdSystem/insurance-medical-institution-no",
            "value": "1311234567"
          }
        ],
        "type": [
          {
            "coding": [
              {
                "system": "http://terminology.hl7.org/CodeSystem/organization-type",
                "code": "prov"
              }
            ]
          }
        ],
        "extension": [
          {
            "url": "http://jpfhir.jp/fhir/eCS/Extension/StructureDefinition/JP_eCS_Department",
            "valueCodeableConcept": {
              "coding": [
                {
                  "code": "08",
                  "system": "urn:oid:1.2.392.200250.2.2.2",
                  "display": "循環器科"
                }
              ]
            }
          }
        ],
        "name": "みなと診療所"
      }
    },
    {
      "fullUrl": "urn:uuid:7cad1f19-3435-451d-9a71-a81b61f3358e",
      "resource": {
        "resourceType": "Encounter",
        "id": "Example-JP-Encounter-eCS-AMB-01Inline",
        "meta": {
          "lastUpdated": "2021-11-26T10:00:00+09:00",
          "profile": [
            "http://jpfhir.jp/fhir/eCS/StructureDefinition/JP_Encounter_eCS"
          ]
        },
        "status": "finished",
        "class": {
          "system": "http://terminology.hl7.org/CodeSystem/v3-ActCode",
          "code": "AMB",
          "display": "外来"
        },
        "classHistory": [
          {
            "class": {
              "system": "http://terminology.hl7.org/CodeSystem/v3-ActCode",
              "code": "AMB",
              "display": "外来"
            },
            "period": {
              "start": "2020-08-20"
            }
          }
        ],
        "language": "ja",
        "identifier": [
          {
            "system": "http://jpfhir.jp/fhir/core/IdSystem/resourceInstance-identifier",
            "value": "192844"
          }
        ]
      }
    },
    {
      "fullUrl": "urn:uuid:6399da0f-77c7-4eb9-fd93-4559d39f1beb",
      "resource": {
        "resourceType": "CarePlan",
        "id": "Example-JP-CarePlan-eCS-HT",
        "meta": {
          "lastUpdated": "2024-07-07T10:00:00+09:00",
          "profile": [
            "http://jpfhir.jp/fhir/eCS/StructureDefinition/JP_CarePlan_ePCS",
            "http://jpfhir.jp/fhir/eCS/StructureDefinition/JP_CarePlan_eCS"
          ]
        },
        "status": "active",
        "intent": "plan",
        "title": "療養計画",
        "identifier": [
          {
            "system": "http://jpfhir.jp/fhir/core/IdSystem/resourceInstance-identifier",
            "value": "192838"
          }
        ],
        "language": "ja",
        "category": [
          {
            "coding": [
              {
                "code": "followup-plan",
                "system": "http://jpfhir.jp/fhir/CarePlan/CodeSystem/category",
                "display": "外来診療経過中プラン"
              }
            ]
          }
        ],
        "description": "高血圧について内服を継続してください。\r\n1日30分でも軽い運動を継続しましょう。",
        "subject": {
          "reference": "urn:uuid:0a48a4bf-0d87-4efb-aafd-d45e0842a4dd"
        },
        "period": {
          "start": "2024-07-07"
        },
        "created": "2024-07-07"
      }
    },
    {
      "fullUrl": "urn:uuid:4c604fad-f24c-da56-d777-8f233bc9f835",
      "resource": {
        "resourceType": "Condition",
        "id": "Example-JP-Condition-eCS-ANGINA-NoPrincipal-Active-Inline",
        "meta": {
          "lastUpdated": "2021-11-26T10:00:00+09:00",
          "profile": [
            "http://jpfhir.jp/fhir/eCS/StructureDefinition/JP_Condition_eCS"
          ]
        },
        "identifier": [
          {
            "system": "http://jpfhir.jp/fhir/core/IdSystem/resourceInstance-identifier",
            "value": "192839-01"
          }
        ],
        "code": {
          "coding": [
            {
              "system": "urn:oid:1.2.392.200119.4.101.2",
              "code": "20058911",
              "display": "狭心症"
            }
          ],
          "text": "狭心症"
        },
        "extension": [
          {
            "url": "http://jpfhir.jp/fhir/clins/Extension/StructureDefinition/JP_eCS_InstitutionNumber",
            "valueIdentifier": {
              "system": "http://jpfhir.jp/fhir/core/IdSystem/insurance-medical-institution-no",
              "value": "1318814790"
            }
          },
          {
            "url": "http://jpfhir.jp/fhir/eCS/Extension/StructureDefinition/JP_eCS_Department",
            "valueCodeableConcept": {
              "coding": [
                {
                  "code": "08",
                  "system": "urn:oid:1.2.392.200250.2.2.2",
                  "display": "循環器科"
                }
              ],
              "text": "循環器診療科"
            }
          }
        ],
        "contained": [
          {
            "resourceType": "Encounter",
            "id": "Example-Contained-JP-Encounter-AMB",
            "meta": {
              "profile": [
                "http://jpfhir.jp/fhir/core/StructureDefinition/JP_Encounter"
              ]
            },
            "language": "ja",
            "identifier": [
              {
                "system": "http://jpfhir.jp/fhir/core/IdSystem/resourceInstance-identifier",
                "value": "192844"
              }
            ],
            "status": "finished",
            "class": {
              "system": "http://terminology.hl7.org/CodeSystem/v3-ActCode",
              "code": "AMB",
              "display": "外来"
            }
          }
        ],
        "clinicalStatus": {
          "coding": [
            {
              "code": "active",
              "system": "http://terminology.hl7.org/CodeSystem/condition-clinical"
            }
          ]
        },
        "verificationStatus": {
          "coding": [
            {
              "code": "confirmed",
              "system": "http://terminology.hl7.org/CodeSystem/condition-ver-status"
            }
          ]
        },
        "category": [
          {
            "coding": [
              {
                "code": "encounter-diagnosis",
                "system": "http://terminology.hl7.org/CodeSystem/condition-category"
              }
            ]
          }
        ],
        "subject": {
          "reference": "urn:uuid:0a48a4bf-0d87-4efb-aafd-d45e0842a4dd"
        },
        "encounter": {
          "reference": "#Example-Contained-JP-Encounter-AMB"
        },
        "onsetDateTime": "2018-08-21"
      }
    },
    {
      "fullUrl": "urn:uuid:54b73122-69e7-6864-d6b2-eb8dbf372e65",
      "resource": {
        "resourceType": "Condition",
        "id": "Example-JP-Condition-eCS-HT-Principal-Active-Inline",
        "meta": {
          "lastUpdated": "2021-11-26T10:00:00+09:00",
          "profile": [
            "http://jpfhir.jp/fhir/eCS/StructureDefinition/JP_Condition_eCS"
          ]
        },
        "identifier": [
          {
            "system": "http://jpfhir.jp/fhir/core/IdSystem/resourceInstance-identifier",
            "value": "192839-01"
          }
        ],
        "code": {
          "coding": [
            {
              "system": "urn:oid:1.2.392.200119.4.101.2",
              "code": "20061593",
              "display": "高血圧症"
            }
          ],
          "text": "高血圧"
        },
        "extension": [
          {
            "url": "http://jpfhir.jp/fhir/clins/Extension/StructureDefinition/JP_eCS_InstitutionNumber",
            "valueIdentifier": {
              "system": "http://jpfhir.jp/fhir/core/IdSystem/insurance-medical-institution-no",
              "value": "1318814790"
            }
          },
          {
            "url": "http://jpfhir.jp/fhir/eCS/Extension/StructureDefinition/JP_eCS_Department",
            "valueCodeableConcept": {
              "coding": [
                {
                  "code": "08",
                  "system": "urn:oid:1.2.392.200250.2.2.2",
                  "display": "循環器科"
                }
              ],
              "text": "循環器診療科"
            }
          },
          {
            "url": "http://jpfhir.jp/fhir/eCS/Extension/StructureDefinition/JP_eCS_DiagnosisType",
            "valueCodeableConcept": {
              "coding": [
                {
                  "code": "principal",
                  "system": "http://terminology.hl7.org/CodeSystem/ex-diagnosistype",
                  "display": "主病名"
                }
              ]
            }
          }
        ],
        "contained": [
          {
            "resourceType": "Encounter",
            "id": "Example-Contained-JP-Encounter-AMB",
            "meta": {
              "profile": [
                "http://jpfhir.jp/fhir/core/StructureDefinition/JP_Encounter"
              ]
            },
            "language": "ja",
            "identifier": [
              {
                "system": "http://jpfhir.jp/fhir/core/IdSystem/resourceInstance-identifier",
                "value": "192844"
              }
            ],
            "status": "finished",
            "class": {
              "system": "http://terminology.hl7.org/CodeSystem/v3-ActCode",
              "code": "AMB",
              "display": "外来"
            }
          }
        ],
        "clinicalStatus": {
          "coding": [
            {
              "code": "active",
              "system": "http://terminology.hl7.org/CodeSystem/condition-clinical"
            }
          ]
        },
        "verificationStatus": {
          "coding": [
            {
              "code": "confirmed",
              "system": "http://terminology.hl7.org/CodeSystem/condition-ver-status"
            }
          ]
        },
        "category": [
          {
            "coding": [
              {
                "code": "encounter-diagnosis",
                "system": "http://terminology.hl7.org/CodeSystem/condition-category"
              }
            ]
          }
        ],
        "subject": {
          "reference": "urn:uuid:0a48a4bf-0d87-4efb-aafd-d45e0842a4dd"
        },
        "encounter": {
          "reference": "#Example-Contained-JP-Encounter-AMB"
        },
        "onsetDateTime": "2018-08-21"
      }
    }
  ]
}
