{
  "resourceType": "Bundle",
  "id": "Bundle-CLINS-Observations-Example-01",
  "meta": {
    "tag": [
      {
        "system": "http://jpfhir.jp/fhir/clins/CodeSystem/BundleResourceType_CS",
        "code": "Observation"
      }
    ],
    "lastUpdated": "2023-11-12T10:00:00+09:00",
    "profile": [
      "http://jpfhir.jp/fhir/clins/StructureDefinition/JP_Bundle_CLINS"
    ]
  },
  "type": "collection",
  "identifier": {
    "system": "http://jpfhir.jp/fhir/clins/bundle-identifier",
    "value": "1318814790^2024^0123-IDa-203949583949"
  },
  "timestamp": "2023-11-12T10:00:00+09:00",
  "entry": [
    {
      "fullUrl": "urn:uuid:b76ef6f6-f6e3-c110-5039-eee64ef6ab6a",
      "resource": {
        "resourceType": "Patient",
        "id": "InlineExample-JP-Patient-standard",
        "meta": {
          "profile": [
            "http://jpfhir.jp/fhir/eCS/StructureDefinition/JP_Patient_eCS"
          ]
        },
        "identifier": [
          {
            "system": "urn:oid:1.2.392.100495.20.3.51.11318814790",
            "value": "000999739"
          },
          {
            "system": "http://jpfhir.jp/fhir/clins/Idsystem/JP_Insurance_memberID",
            "value": "00012345:あいう:１８７:05"
          }
        ],
        "name": [
          {
            "extension": [
              {
                "url": "http://hl7.org/fhir/StructureDefinition/iso21090-EN-representation",
                "valueCode": "IDE"
              }
            ],
            "text": "牧野 爛漫",
            "family": "牧野",
            "given": [
              "爛漫"
            ]
          },
          {
            "extension": [
              {
                "url": "http://hl7.org/fhir/StructureDefinition/iso21090-EN-representation",
                "valueCode": "SYL"
              }
            ],
            "text": "マキノ ランマン",
            "family": "マキノ",
            "given": [
              "ランマン"
            ]
          }
        ],
        "telecom": [
          {
            "system": "phone",
            "value": "03-123-1234",
            "use": "home",
            "rank": 1
          }
        ],
        "gender": "female",
        "birthDate": "1930-06-28",
        "address": [
          {
            "text": "高知県高知市五台山4200-6",
            "postalCode": "781-8125",
            "city": "高知市",
            "state": "高知県"
          }
        ],
        "contact": [
          {
            "telecom": [
              {
                "system": "phone",
                "value": "03-0123-4545   99991",
                "use": "work",
                "rank": 2
              }
            ]
          }
        ]
      }
    },
    {
      "fullUrl": "urn:uuid:f2c5a40b-c7ea-1d52-7e81-7440b1f26f91",
      "resource": {
        "resourceType": "Observation",
        "id": "InlineExample-JP-Obs-LabResult-eCS-Alb",
        "meta": {
          "lastUpdated": "2021-07-09T14:11:13.000+09:00",
          "profile": [
            "http://jpfhir.jp/fhir/eCS/StructureDefinition/JP_Observation_LabResult_eCS"
          ]
        },
        "identifier": [
          {
            "system": "http://jpfhir.jp/fhir/core/IdSystem/resourceInstance-identifier",
            "value": "1318814790-9990767-OBSLAB13883807672021070909210705-2"
          }
        ],
        "category": [
          {
            "coding": [
              {
                "system": "http://jpfhir.jp/fhir/core/CodeSystem/JP_SimpleObservationCategory_CS",
                "code": "laboratory"
              }
            ]
          }
        ],
        "extension": [
          {
            "url": "http://jpfhir.jp/fhir/clins/Extension/StructureDefinition/JP_eCS_InstitutionNumber",
            "valueIdentifier": {
              "system": "http://jpfhir.jp/fhir/core/IdSystem/insurance-medical-institution-no",
              "value": "1318814790"
            }
          },
          {
            "url": "http://jpfhir.jp/fhir/eCS/Extension/StructureDefinition/JP_eCS_Department",
            "valueCodeableConcept": {
              "coding": [
                {
                  "code": "08",
                  "system": "urn:oid:1.2.392.200250.2.2.2",
                  "display": "循環器科"
                }
              ],
              "text": "循環器診療科"
            }
          }
        ],
        "contained": [
          {
            "resourceType": "Encounter",
            "id": "Example-Contained-JP-Encounter-AMB",
            "meta": {
              "profile": [
                "http://jpfhir.jp/fhir/core/StructureDefinition/JP_Encounter"
              ]
            },
            "identifier": [
              {
                "system": "http://jpfhir.jp/fhir/core/IdSystem/resourceInstance-identifier",
                "value": "192844"
              }
            ],
            "status": "finished",
            "class": {
              "system": "http://terminology.hl7.org/CodeSystem/v3-ActCode",
              "code": "AMB",
              "display": "外来"
            }
          },
          {
            "resourceType": "Specimen",
            "id": "Example-Contained-JP-Specimen-Serum",
            "meta": {
              "profile": [
                "http://jpfhir.jp/fhir/core/StructureDefinition/JP_Specimen"
              ]
            },
            "type": {
              "coding": [
                {
                  "code": "023",
                  "system": "http://jpfhir.jp/fhir/core/CodeSystem/JP_ObservationSampleMaterialCode_CS",
                  "display": "血清"
                },
                {
                  "code": "SER",
                  "system": "http://terminology.hl7.org/CodeSystem/v2-0487",
                  "display": "Serum"
                }
              ],
              "text": "血清"
            }
          }
        ],
        "status": "final",
        "code": {
          "coding": [
            {
              "code": "0000181800",
              "system": "http://jpfhir.jp/fhir/clins/CodeSystem/JP_CLINS_ObsLabResult_LocalCode_CS",
              "display": "アルブミン"
            },
            {
              "code": "3A015000001827101",
              "system": "http://jpfhir.jp/fhir/clins/CodeSystem/JP_CLINS_ObsLabResult_CoreLabo_CS",
              "display": "ALB"
            }
          ],
          "text": "アルブミン"
        },
        "subject": {
          "reference": "urn:uuid:b76ef6f6-f6e3-c110-5039-eee64ef6ab6a"
        },
        "effectiveDateTime": "2021-07-05T11:19:41+09:00",
        "encounter": {
          "reference": "#Example-Contained-JP-Encounter-AMB"
        },
        "issued": "2021-07-05T15:38:59.000+09:00",
        "valueQuantity": {
          "value": 3.9,
          "unit": "mg/L"
        },
        "specimen": {
          "reference": "#Example-Contained-JP-Specimen-Serum",
          "type": "Specimen"
        }
      }
    },
    {
      "fullUrl": "urn:uuid:fd601925-858c-2d96-f061-9de1076d419c",
      "resource": {
        "resourceType": "Observation",
        "id": "InlineExample-JP-Obs-LabResult-eCS-K",
        "meta": {
          "lastUpdated": "2021-07-09T14:11:13.000+09:00",
          "profile": [
            "http://jpfhir.jp/fhir/eCS/StructureDefinition/JP_Observation_LabResult_eCS"
          ]
        },
        "identifier": [
          {
            "system": "http://jpfhir.jp/fhir/core/IdSystem/resourceInstance-identifier",
            "value": "1318814790-9990767-OBSLAB13883807672021070909210705-2"
          }
        ],
        "category": [
          {
            "coding": [
              {
                "system": "http://jpfhir.jp/fhir/core/CodeSystem/JP_SimpleObservationCategory_CS",
                "code": "laboratory"
              }
            ]
          }
        ],
        "extension": [
          {
            "url": "http://jpfhir.jp/fhir/clins/Extension/StructureDefinition/JP_eCS_InstitutionNumber",
            "valueIdentifier": {
              "system": "http://jpfhir.jp/fhir/core/IdSystem/insurance-medical-institution-no",
              "value": "1318814790"
            }
          },
          {
            "url": "http://jpfhir.jp/fhir/eCS/Extension/StructureDefinition/JP_eCS_Department",
            "valueCodeableConcept": {
              "coding": [
                {
                  "code": "08",
                  "system": "urn:oid:1.2.392.200250.2.2.2",
                  "display": "循環器科"
                }
              ],
              "text": "循環器診療科"
            }
          }
        ],
        "contained": [
          {
            "resourceType": "Encounter",
            "id": "Example-Contained-JP-Encounter-AMB",
            "meta": {
              "profile": [
                "http://jpfhir.jp/fhir/core/StructureDefinition/JP_Encounter"
              ]
            },
            "identifier": [
              {
                "system": "http://jpfhir.jp/fhir/core/IdSystem/resourceInstance-identifier",
                "value": "192844"
              }
            ],
            "status": "finished",
            "class": {
              "system": "http://terminology.hl7.org/CodeSystem/v3-ActCode",
              "code": "AMB",
              "display": "外来"
            }
          }
        ],
        "status": "final",
        "code": {
          "coding": [
            {
              "code": "10000181802",
              "system": "http://jpfhir.jp/fhir/clins/CodeSystem/JP_CLINS_ObsLabResult_LocalCode_CS",
              "display": "カリウム"
            },
            {
              "code": "3H015000002326101",
              "system": "http://jpfhir.jp/fhir/clins/CodeSystem/JP_CLINS_ObsLabResult_CoreLabo_CS",
              "display": "K"
            },
            {
              "code": "3H015000002326101",
              "system": "urn:oid:1.2.392.200119.4.504",
              "display": "K"
            }
          ],
          "text": "カリウム"
        },
        "subject": {
          "reference": "urn:uuid:b76ef6f6-f6e3-c110-5039-eee64ef6ab6a"
        },
        "effectiveDateTime": "2021-07-05T11:19:41+09:00",
        "encounter": {
          "reference": "#Example-Contained-JP-Encounter-AMB"
        },
        "issued": "2021-07-05T15:38:59.000+09:00",
        "valueQuantity": {
          "value": 3.5,
          "unit": "mEq/L"
        },
        "specimen": {
          "display": "血清",
          "type": "Specimen"
        }
      }
    },
    {
      "fullUrl": "urn:uuid:2ac56975-1610-5496-eb0e-c2a5f2f01a62",
      "resource": {
        "resourceType": "Observation",
        "id": "InlineExample-JP-Obs-LabResult-eCS-eGFR",
        "meta": {
          "lastUpdated": "2021-07-09T14:11:13.000+09:00",
          "profile": [
            "http://jpfhir.jp/fhir/eCS/StructureDefinition/JP_Observation_LabResult_eCS"
          ]
        },
        "identifier": [
          {
            "system": "http://jpfhir.jp/fhir/core/IdSystem/resourceInstance-identifier",
            "value": "1318814790-9990767-OBSLAB13883807672021070909210705-2"
          }
        ],
        "category": [
          {
            "coding": [
              {
                "system": "http://jpfhir.jp/fhir/core/CodeSystem/JP_SimpleObservationCategory_CS",
                "code": "laboratory"
              }
            ]
          }
        ],
        "extension": [
          {
            "url": "http://jpfhir.jp/fhir/clins/Extension/StructureDefinition/JP_eCS_InstitutionNumber",
            "valueIdentifier": {
              "system": "http://jpfhir.jp/fhir/core/IdSystem/insurance-medical-institution-no",
              "value": "1318814790"
            }
          },
          {
            "url": "http://jpfhir.jp/fhir/eCS/Extension/StructureDefinition/JP_eCS_Department",
            "valueCodeableConcept": {
              "coding": [
                {
                  "code": "08",
                  "system": "urn:oid:1.2.392.200250.2.2.2",
                  "display": "循環器科"
                }
              ],
              "text": "循環器診療科"
            }
          }
        ],
        "contained": [
          {
            "resourceType": "Encounter",
            "id": "Example-Contained-JP-Encounter-AMB",
            "meta": {
              "profile": [
                "http://jpfhir.jp/fhir/core/StructureDefinition/JP_Encounter"
              ]
            },
            "identifier": [
              {
                "system": "http://jpfhir.jp/fhir/core/IdSystem/resourceInstance-identifier",
                "value": "192844"
              }
            ],
            "status": "finished",
            "class": {
              "system": "http://terminology.hl7.org/CodeSystem/v3-ActCode",
              "code": "AMB",
              "display": "外来"
            }
          }
        ],
        "status": "final",
        "code": {
          "coding": [
            {
              "code": "0000181910",
              "system": "http://jpfhir.jp/fhir/clins/CodeSystem/JP_CLINS_ObsLabResult_LocalCode_CS",
              "display": "eGFR"
            },
            {
              "code": "8A065000002391901",
              "system": "urn:oid:1.2.392.200119.4.504",
              "display": "推算GFR"
            }
          ],
          "text": "eGFR"
        },
        "subject": {
          "reference": "urn:uuid:b76ef6f6-f6e3-c110-5039-eee64ef6ab6a"
        },
        "effectiveDateTime": "2021-07-05T11:19:41+09:00",
        "encounter": {
          "reference": "#Example-Contained-JP-Encounter-AMB"
        },
        "issued": "2021-07-05T15:38:59.000+09:00",
        "valueQuantity": {
          "value": 75,
          "unit": "ml/min/1.73m2"
        },
        "specimen": {
          "display": "血清",
          "type": "Specimen"
        }
      }
    },
    {
      "fullUrl": "urn:uuid:e3a7af80-ca1f-5638-dc97-00fa9458fe1c",
      "resource": {
        "resourceType": "Observation",
        "id": "InlineExample-JP-Obs-LabResult-eCS-UTP",
        "meta": {
          "lastUpdated": "2021-07-09T14:11:13.000+09:00",
          "profile": [
            "http://jpfhir.jp/fhir/eCS/StructureDefinition/JP_Observation_LabResult_eCS"
          ]
        },
        "identifier": [
          {
            "system": "http://jpfhir.jp/fhir/core/IdSystem/resourceInstance-identifier",
            "value": "1318814790-9990767-OBSLAB13883807672021070909210705-2"
          }
        ],
        "category": [
          {
            "coding": [
              {
                "system": "http://jpfhir.jp/fhir/core/CodeSystem/JP_SimpleObservationCategory_CS",
                "code": "laboratory"
              }
            ]
          }
        ],
        "extension": [
          {
            "url": "http://jpfhir.jp/fhir/clins/Extension/StructureDefinition/JP_eCS_InstitutionNumber",
            "valueIdentifier": {
              "system": "http://jpfhir.jp/fhir/core/IdSystem/insurance-medical-institution-no",
              "value": "1318814790"
            }
          },
          {
            "url": "http://jpfhir.jp/fhir/eCS/Extension/StructureDefinition/JP_eCS_Department",
            "valueCodeableConcept": {
              "coding": [
                {
                  "code": "08",
                  "system": "urn:oid:1.2.392.200250.2.2.2",
                  "display": "循環器科"
                }
              ],
              "text": "循環器診療科"
            }
          }
        ],
        "contained": [
          {
            "resourceType": "Encounter",
            "id": "Example-Contained-JP-Encounter-AMB",
            "meta": {
              "profile": [
                "http://jpfhir.jp/fhir/core/StructureDefinition/JP_Encounter"
              ]
            },
            "identifier": [
              {
                "system": "http://jpfhir.jp/fhir/core/IdSystem/resourceInstance-identifier",
                "value": "192844"
              }
            ],
            "status": "finished",
            "class": {
              "system": "http://terminology.hl7.org/CodeSystem/v3-ActCode",
              "code": "AMB",
              "display": "外来"
            }
          }
        ],
        "status": "final",
        "code": {
          "coding": [
            {
              "code": "1A990000000190153",
              "system": "http://jpfhir.jp/fhir/clins/CodeSystem/JP_CLINS_ObsLabResult_LocalCode_CS",
              "display": "尿蛋⽩(定性)"
            },
            {
              "code": "1A990000000190153",
              "system": "http://jpfhir.jp/fhir/clins/CodeSystem/JP_CLINS_ObsLabResult_CoreLabo_CS",
              "display": "U-TP-定性半定量"
            }
          ],
          "text": "尿蛋⽩(定性)"
        },
        "subject": {
          "reference": "urn:uuid:b76ef6f6-f6e3-c110-5039-eee64ef6ab6a"
        },
        "effectiveDateTime": "2021-07-05T11:19:41+09:00",
        "encounter": {
          "reference": "#Example-Contained-JP-Encounter-AMB"
        },
        "issued": "2021-07-05T15:38:59.000+09:00",
        "valueCodeableConcept": {
          "coding": [
            {
              "code": "2",
              "system": "urn:oid:1.2.392.200119.6.2102",
              "display": "±"
            }
          ],
          "text": "(±)"
        },
        "specimen": {
          "display": "尿",
          "type": "Specimen"
        }
      }
    }
  ]
}
