{
  "resourceType": "Bundle",
  "id": "Bundle-CLINS-Observations-Example-01",
  "meta": {
    "tag": [
      {
        "system": "http://jpfhir.jp/fhir/clins/CodeSystem/BundleResourceType_CS",
        "code": "Observation"
      }
    ],
    "lastUpdated": "2023-11-12T10:00:00+09:00",
    "profile": [
      "http://jpfhir.jp/fhir/clins/StructureDefinition/JP_Bundle_CLINS|1"
    ]
  },
  "type": "collection",
  "identifier": {
    "system": "http://jpfhir.jp/fhir/clins/bundle-identifier",
    "value": "1318814790^2024^0123-IDa-203949583949"
  },
  "language": "ja",
  "timestamp": "2023-11-12T10:00:00+09:00",
  "entry": [
    {
      "fullUrl": "urn:uuid:b76ef6f6-f6e3-c110-5039-eee64ef6ab6a",
      "resource": {
        "resourceType": "Patient",
        "id": "InlineExample-JP-Patient-standard",
        "meta": {
          "lastUpdated": "2023-11-12T10:00:00+09:00",
          "profile": [
            "http://jpfhir.jp/fhir/eCS/StructureDefinition/JP_Patient_eCS"
          ]
        },
        "text": {
          "status": "additional",
          "div": "<div xmlns=\"http://www.w3.org/1999/xhtml\" lang=\"ja\" xml:lang=\"ja\"><p>患者ID：000999739</p><p>被保険者患者番号：00012345:あいう:１８７:05</p><p>漢字氏名：マキノ ランマン</p><p>カナ氏名：牧野 爛漫</p><p>電話：03-123-1234</p><p>性別：female</p><p>生年月日：1930-06-28</p><p>高知県高知市五台山4200-6</p></div>"
        },
        "language": "ja",
        "identifier": [
          {
            "system": "urn:oid:1.2.392.100495.20.3.51.11318814790",
            "value": "000999739"
          },
          {
            "system": "http://jpfhir.jp/fhir/clins/Idsystem/JP_Insurance_memberID",
            "value": "00012345:あいう:１８７:05"
          }
        ],
        "name": [
          {
            "extension": [
              {
                "url": "http://hl7.org/fhir/StructureDefinition/iso21090-EN-representation",
                "valueCode": "IDE"
              }
            ],
            "text": "牧野 爛漫",
            "family": "牧野",
            "given": [
              "爛漫"
            ]
          },
          {
            "extension": [
              {
                "url": "http://hl7.org/fhir/StructureDefinition/iso21090-EN-representation",
                "valueCode": "SYL"
              }
            ],
            "text": "マキノ ランマン",
            "family": "マキノ",
            "given": [
              "ランマン"
            ]
          }
        ],
        "telecom": [
          {
            "system": "phone",
            "value": "03-123-1234",
            "use": "home",
            "rank": 1
          }
        ],
        "gender": "female",
        "birthDate": "1930-06-28",
        "address": [
          {
            "text": "高知県高知市五台山4200-6",
            "postalCode": "781-8125",
            "city": "高知市",
            "state": "高知県"
          }
        ],
        "contact": [
          {
            "telecom": [
              {
                "system": "phone",
                "value": "03-0123-4545   99991",
                "use": "work",
                "rank": 2
              }
            ]
          }
        ]
      }
    },
    {
      "fullUrl": "urn:uuid:e3a7af80-ca1f-5638-dc97-00fa9458fe1c",
      "resource": {
        "resourceType": "Observation",
        "id": "InlineExample-JP-Obs-LabResult-eCS-UTP",
        "meta": {
          "lastUpdated": "2021-07-09T14:11:13.000+09:00",
          "profile": [
            "http://jpfhir.jp/fhir/eCS/StructureDefinition/JP_Observation_LabResult_eCS"
          ]
        },
        "identifier": [
          {
            "system": "http://jpfhir.jp/fhir/core/IdSystem/resourceInstance-identifier",
            "value": "1318814790-9990767-OBSLAB13883807672021070909210705-2"
          }
        ],
        "category": [
          {
            "coding": [
              {
                "system": "http://jpfhir.jp/fhir/core/CodeSystem/JP_SimpleObservationCategory_CS",
                "code": "laboratory"
              }
            ]
          }
        ],
        "extension": [
          {
            "url": "http://jpfhir.jp/fhir/clins/Extension/StructureDefinition/JP_eCS_InstitutionNumber",
            "valueIdentifier": {
              "system": "http://jpfhir.jp/fhir/core/IdSystem/insurance-medical-institution-no",
              "value": "1318814790"
            }
          },
          {
            "url": "http://jpfhir.jp/fhir/eCS/Extension/StructureDefinition/JP_eCS_Department",
            "valueCodeableConcept": {
              "coding": [
                {
                  "code": "08",
                  "system": "http://jami.jp/SS-MIX2/CodeSystem/ClinicalDepartment",
                  "display": "循環器科"
                }
              ],
              "text": "循環器診療科"
            }
          }
        ],
        "language": "ja",
        "contained": [
          {
            "resourceType": "Encounter",
            "id": "Example-Contained-JP-Encounter-AMB",
            "meta": {
              "profile": [
                "http://jpfhir.jp/fhir/core/StructureDefinition/JP_Encounter"
              ]
            },
            "language": "ja",
            "identifier": [
              {
                "system": "http://jpfhir.jp/fhir/core/IdSystem/resourceInstance-identifier",
                "value": "192844"
              }
            ],
            "status": "finished",
            "class": {
              "system": "http://terminology.hl7.org/CodeSystem/v3-ActCode",
              "code": "AMB",
              "display": "外来"
            }
          },
          {
            "resourceType": "Practitioner",
            "id": "Example-Contained-JP-Practitioner-minimun-D002",
            "meta": {
              "profile": [
                "http://jpfhir.jp/fhir/core/StructureDefinition/JP_Practitioner"
              ]
            },
            "language": "ja",
            "identifier": [
              {
                "system": "urn:oid:1.2.392.100495.20.3.41.11311234567",
                "value": "D001"
              }
            ],
            "name": [
              {
                "extension": [
                  {
                    "url": "http://hl7.org/fhir/StructureDefinition/iso21090-EN-representation",
                    "valueCode": "IDE"
                  }
                ],
                "text": "田中 宏"
              }
            ]
          }
        ],
        "status": "final",
        "code": {
          "coding": [
            {
              "code": "1A990000000190153",
              "system": "http://jpfhir.jp/fhir/clins/CodeSystem/JP_CLINS_ObsLabResult_LocalCode_CS",
              "display": "尿蛋⽩(定性)"
            },
            {
              "code": "1A990000000190153",
              "system": "http://jpfhir.jp/fhir/clins/CodeSystem/JP_CLINS_ObsLabResult_CoreLabo_CS",
              "display": "U-TP-定性半定量"
            }
          ],
          "text": "尿蛋⽩(定性)"
        },
        "subject": {
          "reference": "urn:uuid:b76ef6f6-f6e3-c110-5039-eee64ef6ab6a"
        },
        "effectiveDateTime": "2021-07-05T11:19:41+09:00",
        "encounter": {
          "reference": "#Example-Contained-JP-Encounter-AMB"
        },
        "issued": "2021-07-05T15:38:59.000+09:00",
        "performer": [
          {
            "reference": "#Example-Contained-JP-Practitioner-minimun-D002"
          }
        ],
        "valueCodeableConcept": {
          "coding": [
            {
              "code": "2",
              "system": "urn:oid:1.2.392.200119.6.2102",
              "display": "±"
            }
          ],
          "text": "(±)"
        },
        "specimen": {
          "display": "尿",
          "type": "Specimen"
        }
      }
    }
  ]
}
