{
  "resourceType": "Bundle",
  "id": "Bundle-CLINS-Referral-Example-01",
  "meta": {
    "lastUpdated": "2021-11-26T10:00:00+09:00",
    "profile": [
      "http://jpfhir.jp/fhir/clins/StructureDefinition/JP_Bundle_eReferral|1"
    ]
  },
  "type": "document",
  "identifier": {
    "system": "http://jpfhir.jp/fhir/clins/bundle-identifier",
    "value": "1318814790^2024^0123-Referral-203949583949"
  },
  "language": "ja",
  "timestamp": "2021-11-26T10:00:00+09:00",
  "entry": [
    {
      "fullUrl": "urn:uuid:830ec2d1-67a7-427e-b6fe-ad0eb29da7fb",
      "resource": {
        "resourceType": "Composition",
        "id": "compositionReferralExample01Inline",
        "meta": {
          "lastUpdated": "2021-11-26T10:00:00+09:00",
          "profile": [
            "http://jpfhir.jp/fhir/eReferral/StructureDefinition/JP_Composition_eReferral"
          ]
        },
        "status": "final",
        "title": "診療情報提供書",
        "extension": [
          {
            "url": "http://hl7.org/fhir/StructureDefinition/composition-clinicaldocument-versionNumber",
            "valueString": "1.0"
          }
        ],
        "identifier": {
          "system": "http://jpfhir.jp/fhir/core/IdSystem/resourceInstance-identifier",
          "value": "1311234567-2021-12345678"
        },
        "section": [
          {
            "title": "紹介元情報",
            "text": {
              "status": "additional",
              "div": "<div xmlns=\"http://www.w3.org/1999/xhtml\">港診療所</div>"
            },
            "code": {
              "coding": [
                {
                  "system": "http://jpfhir.jp/fhir/clins/CodeSystem/document-section",
                  "code": "920",
                  "display": "紹介元情報セクション"
                }
              ]
            },
            "entry": [
              {
                "reference": "urn:uuid:8a888471-9781-4fb7-b5c4-b34afcdea638",
                "type": "Organization",
                "display": "紹介元医療機関"
              },
              {
                "reference": "urn:uuid:3e6a0ba2-d781-4fd7-9de6-e077b690daed",
                "type": "Practitioner",
                "display": "紹介元医師"
              }
            ]
          },
          {
            "title": "紹介先情報",
            "text": {
              "status": "additional",
              "div": "<div xmlns=\"http://www.w3.org/1999/xhtml\">東京第一テスト病院</div>"
            },
            "code": {
              "coding": [
                {
                  "system": "http://jpfhir.jp/fhir/clins/CodeSystem/document-section",
                  "code": "910",
                  "display": "紹介先情報セクション"
                }
              ]
            },
            "entry": [
              {
                "reference": "urn:uuid:a44951be-cdaa-4c53-9e35-6be013da5441",
                "type": "Organization",
                "display": "紹介先医療機関"
              },
              {
                "reference": "urn:uuid:f11535c2-043d-43b6-bf99-b8298ea3c946",
                "type": "Practitioner",
                "display": "紹介先医師"
              }
            ]
          },
          {
            "title": "構造情報",
            "section": [
              {
                "title": "紹介目的",
                "text": {
                  "status": "additional",
                  "div": "<div xmlns=\"http://www.w3.org/1999/xhtml\">腹痛精査お願いします。</div>"
                },
                "code": {
                  "coding": [
                    {
                      "system": "http://jpfhir.jp/fhir/clins/CodeSystem/document-section",
                      "code": "950",
                      "display": "紹介目的セクション"
                    }
                  ]
                },
                "entry": [
                  {
                    "reference": "urn:uuid:3acc3dc7-c79b-41f1-8eea-ac4de9b664b8",
                    "type": "Encounter",
                    "display": "紹介目的"
                  }
                ]
              },
              {
                "title": "傷病名・主訴",
                "text": {
                  "status": "additional",
                  "div": "<div xmlns=\"http://www.w3.org/1999/xhtml\">上腹部痛、腰痛</div>"
                },
                "code": {
                  "coding": [
                    {
                      "system": "http://jpfhir.jp/fhir/clins/CodeSystem/document-section",
                      "code": "340",
                      "display": "傷病名・主訴セクション"
                    }
                  ]
                },
                "entry": [
                  {
                    "reference": "urn:uuid:6a31db8e-109d-4349-b0cf-095131c3307a",
                    "type": "Condition",
                    "display": "傷病名・主訴"
                  },
                  {
                    "reference": "urn:uuid:a9358f3e-c743-4998-aa89-1be54c31b432",
                    "type": "Condition",
                    "display": "傷病名・主訴"
                  }
                ]
              },
              {
                "title": "現病歴",
                "text": {
                  "status": "additional",
                  "div": "<div xmlns=\"http://www.w3.org/1999/xhtml\">２０２２年６月上旬から夜食後に時々上腹部痛があり、だんだんひどくなっている。他に目立った症状なし。</div>"
                },
                "code": {
                  "coding": [
                    {
                      "system": "http://jpfhir.jp/fhir/clins/CodeSystem/document-section",
                      "code": "360",
                      "display": "現病歴セクション"
                    }
                  ]
                },
                "entry": [
                  {
                    "reference": "urn:uuid:5eab50b2-6741-467c-a2fd-a4adab1f835f",
                    "type": "Condition",
                    "display": "現病歴"
                  }
                ]
              },
              {
                "title": "既往歴",
                "text": {
                  "status": "additional",
                  "div": "<div xmlns=\"http://www.w3.org/1999/xhtml\">2018年　狭心症　２ヶ月治療で軽快。2019年　交通事故で左前腕骨折　３ヶ月ギプス固定。</div>"
                },
                "code": {
                  "coding": [
                    {
                      "system": "http://jpfhir.jp/fhir/clins/CodeSystem/document-section",
                      "code": "370",
                      "display": "既往歴セクション"
                    }
                  ]
                },
                "entry": [
                  {
                    "reference": "urn:uuid:5c650562-f4e4-40b3-87c6-e9a0376be7a8",
                    "type": "Condition",
                    "display": "既往歴"
                  },
                  {
                    "reference": "urn:uuid:a28198b9-6a23-4677-ba2e-5eb3e17d9792",
                    "type": "Condition",
                    "display": "既往歴"
                  }
                ]
              },
              {
                "title": "アレルギー・不耐性反応",
                "text": {
                  "status": "additional",
                  "div": "<div xmlns=\"http://www.w3.org/1999/xhtml\">サバ　キーウイ　ヨード禁</div>"
                },
                "code": {
                  "coding": [
                    {
                      "system": "http://jpfhir.jp/fhir/clins/CodeSystem/document-section",
                      "code": "510",
                      "display": "アレルギー・不耐性反応セクション"
                    }
                  ]
                },
                "entry": [
                  {
                    "reference": "urn:uuid:711b07ae-d20b-40b0-9aa9-c7f1981409e6",
                    "type": "AllergyIntolerance",
                    "display": "アレルギー・不耐性反応"
                  },
                  {
                    "reference": "urn:uuid:5a1aae74-f720-415a-ba15-a6c8b5d4c5a1",
                    "type": "AllergyIntolerance",
                    "display": "アレルギー・不耐性反応"
                  },
                  {
                    "reference": "urn:uuid:0d51bf2a-4863-b36f-2ad3-cb5ea0df1023",
                    "type": "AllergyIntolerance",
                    "display": "アレルギー・不耐性反応"
                  }
                ]
              },
              {
                "title": "家族歴",
                "text": {
                  "status": "additional",
                  "div": "<div xmlns=\"http://www.w3.org/1999/xhtml\">母　胃がん</div>"
                },
                "code": {
                  "coding": [
                    {
                      "system": "http://jpfhir.jp/fhir/clins/CodeSystem/document-section",
                      "code": "550",
                      "display": "家族歴セクション"
                    }
                  ]
                }
              },
              {
                "title": "身体所見",
                "text": {
                  "status": "additional",
                  "div": "<div xmlns=\"http://www.w3.org/1999/xhtml\">腹部所見：上腹部圧痛あり、その他特に所見なし。</div>"
                },
                "code": {
                  "coding": [
                    {
                      "system": "http://jpfhir.jp/fhir/clins/CodeSystem/document-section",
                      "code": "610",
                      "display": "身体所見セクション"
                    }
                  ]
                },
                "entry": [
                  {
                    "reference": "urn:uuid:481835ef-0891-45de-a006-087954ab6b7c",
                    "type": "Observation",
                    "display": "身体所見"
                  }
                ]
              },
              {
                "title": "感染症情報",
                "text": {
                  "status": "additional",
                  "div": "<div xmlns=\"http://www.w3.org/1999/xhtml\">特になし</div>"
                },
                "code": {
                  "coding": [
                    {
                      "system": "http://jpfhir.jp/fhir/clins/CodeSystem/document-section",
                      "code": "520",
                      "display": "感染症情報セクション"
                    }
                  ]
                }
              },
              {
                "title": "臨床経過",
                "text": {
                  "status": "additional",
                  "div": "<div xmlns=\"http://www.w3.org/1999/xhtml\">添付参照</div>"
                },
                "code": {
                  "coding": [
                    {
                      "system": "http://jpfhir.jp/fhir/clins/CodeSystem/document-section",
                      "code": "330",
                      "display": "臨床経過セクション"
                    }
                  ]
                },
                "entry": [
                  {
                    "reference": "urn:uuid:a6e4fc73-a749-4583-94a7-18e4241b4c75",
                    "type": "DocumentReference",
                    "display": "臨床経過"
                  }
                ]
              }
            ],
            "code": {
              "coding": [
                {
                  "system": "http://jpfhir.jp/fhir/clins/CodeSystem/document-section",
                  "code": "300",
                  "display": "構造情報セクション"
                }
              ]
            }
          }
        ],
        "type": {
          "coding": [
            {
              "code": "57133-1",
              "system": "http://jpfhir.jp/fhir/Common/CodeSystem/doc-typecodes",
              "display": "診療情報提供書"
            }
          ]
        },
        "category": [
          {
            "coding": [
              {
                "system": "http://jpfhir.jp/fhir/Common/CodeSystem/doc-subtypecodes",
                "code": "OUTPATIENT",
                "display": "外来文書"
              }
            ]
          }
        ],
        "event": [
          {
            "code": [
              {
                "text": "診療情報提供書発行"
              }
            ],
            "period": {
              "start": "2020-08-21"
            }
          }
        ],
        "language": "ja",
        "subject": {
          "reference": "urn:uuid:0a48a4bf-0d87-4efb-aafd-d45e0842a4dd",
          "type": "Patient",
          "display": "患者リソースPatient"
        },
        "encounter": {
          "reference": "urn:uuid:7cad1f19-3435-451d-9a71-a81b61f3358e",
          "type": "Encounter",
          "display": "受診Encounterリソース"
        },
        "date": "2020-08-21T12:12:20+09:00",
        "author": [
          {
            "reference": "urn:uuid:3e6a0ba2-d781-4fd7-9de6-e077b690daed",
            "type": "Practitioner",
            "display": "診療情報提供書作成者PractitionerRoleリソース"
          },
          {
            "reference": "urn:uuid:8a888471-9781-4fb7-b5c4-b34afcdea638",
            "type": "Organization",
            "display": "診療情報提供書作成機関Organizationリソース"
          }
        ],
        "custodian": {
          "reference": "urn:uuid:8a888471-9781-4fb7-b5c4-b34afcdea638",
          "type": "Organization",
          "display": "診療情報提供書交付責任機関Organizationリソース"
        }
      }
    },
    {
      "fullUrl": "urn:uuid:0a48a4bf-0d87-4efb-aafd-d45e0842a4dd",
      "resource": {
        "resourceType": "Patient",
        "id": "Example-JP-Patient-eCS-MAKINOInline",
        "meta": {
          "lastUpdated": "2021-11-26T10:00:00+09:00",
          "profile": [
            "http://jpfhir.jp/fhir/eCS/StructureDefinition/JP_Patient_eCS"
          ]
        },
        "language": "ja",
        "identifier": [
          {
            "system": "urn:oid:1.2.392.100495.20.3.51.11318814790",
            "value": "000999739"
          },
          {
            "system": "http://jpfhir.jp/fhir/clins/Idsystem/JP_Insurance_memberID",
            "value": "00012345:あいう:１８７:05"
          }
        ],
        "active": true,
        "name": [
          {
            "extension": [
              {
                "url": "http://hl7.org/fhir/StructureDefinition/iso21090-EN-representation",
                "valueCode": "IDE"
              }
            ],
            "text": "牧野 爛漫",
            "family": "牧野",
            "given": [
              "爛漫"
            ]
          },
          {
            "extension": [
              {
                "url": "http://hl7.org/fhir/StructureDefinition/iso21090-EN-representation",
                "valueCode": "SYL"
              }
            ],
            "text": "マキノ ランマン",
            "family": "マキノ",
            "given": [
              "ランマン"
            ]
          }
        ],
        "telecom": [
          {
            "system": "phone",
            "value": "03-123-1234",
            "use": "home",
            "rank": 1
          }
        ],
        "gender": "female",
        "birthDate": "1930-06-28",
        "address": [
          {
            "text": "高知県高知市五台山4200-6",
            "postalCode": "781-8125",
            "city": "高知市",
            "state": "高知県"
          }
        ],
        "contact": [
          {
            "telecom": [
              {
                "system": "phone",
                "value": "03-0123-4545   99991",
                "use": "work",
                "rank": 2
              }
            ]
          }
        ]
      }
    },
    {
      "fullUrl": "urn:uuid:7cad1f19-3435-451d-9a71-a81b61f3358e",
      "resource": {
        "resourceType": "Encounter",
        "id": "Example-JP-Encounter-eCS-AMB-01Inline",
        "meta": {
          "lastUpdated": "2021-11-26T10:00:00+09:00",
          "profile": [
            "http://jpfhir.jp/fhir/eCS/StructureDefinition/JP_Encounter_eCS"
          ]
        },
        "status": "finished",
        "class": {
          "system": "http://terminology.hl7.org/CodeSystem/v3-ActCode",
          "code": "AMB",
          "display": "外来"
        },
        "classHistory": [
          {
            "class": {
              "system": "http://terminology.hl7.org/CodeSystem/v3-ActCode",
              "code": "AMB",
              "display": "外来"
            },
            "period": {
              "start": "2020-08-20"
            }
          }
        ],
        "language": "ja",
        "identifier": [
          {
            "system": "http://jpfhir.jp/fhir/core/IdSystem/resourceInstance-identifier",
            "value": "192844"
          }
        ]
      }
    },
    {
      "fullUrl": "urn:uuid:3e6a0ba2-d781-4fd7-9de6-e077b690daed",
      "resource": {
        "resourceType": "Practitioner",
        "id": "Example-JP-Practitioner-eCS-ReferralFrom01Inline",
        "meta": {
          "lastUpdated": "2021-11-26T10:00:00+09:00",
          "profile": [
            "http://jpfhir.jp/fhir/eCS/StructureDefinition/JP_Practitioner_eCS"
          ]
        },
        "language": "ja",
        "name": [
          {
            "extension": [
              {
                "url": "http://hl7.org/fhir/StructureDefinition/iso21090-EN-representation",
                "valueCode": "IDE"
              }
            ],
            "use": "official",
            "text": "大河内 勘三郎",
            "family": "大河内",
            "given": [
              "勘三郎"
            ]
          },
          {
            "extension": [
              {
                "url": "http://hl7.org/fhir/StructureDefinition/iso21090-EN-representation",
                "valueCode": "SYL"
              }
            ],
            "use": "official",
            "text": "オオコウチ カンザブロウ",
            "family": "オオコウチ",
            "given": [
              "カンザブロウ"
            ]
          }
        ]
      }
    },
    {
      "fullUrl": "urn:uuid:f11535c2-043d-43b6-bf99-b8298ea3c946",
      "resource": {
        "resourceType": "Practitioner",
        "id": "Example-JP-Practitioner-eCS-ReferralTo01Inline",
        "meta": {
          "lastUpdated": "2021-11-26T10:00:00+09:00",
          "profile": [
            "http://jpfhir.jp/fhir/eCS/StructureDefinition/JP_Practitioner_eCS"
          ]
        },
        "language": "ja",
        "name": [
          {
            "extension": [
              {
                "url": "http://hl7.org/fhir/StructureDefinition/iso21090-EN-representation",
                "valueCode": "IDE"
              }
            ],
            "use": "official",
            "text": "野口 英世丸",
            "family": "野口",
            "given": [
              "英世丸"
            ]
          },
          {
            "extension": [
              {
                "url": "http://hl7.org/fhir/StructureDefinition/iso21090-EN-representation",
                "valueCode": "SYL"
              }
            ],
            "use": "official",
            "text": "ノグチ ヒデヨマル",
            "family": "ノグチ",
            "given": [
              "ヒデヨマル"
            ]
          }
        ]
      }
    },
    {
      "fullUrl": "urn:uuid:8a888471-9781-4fb7-b5c4-b34afcdea638",
      "resource": {
        "resourceType": "Organization",
        "id": "Example-JP-Org-eCS-Inst-Referral01Inline",
        "meta": {
          "lastUpdated": "2021-11-26T10:00:00+09:00",
          "profile": [
            "http://jpfhir.jp/fhir/eCS/StructureDefinition/JP_Organization_eCS"
          ]
        },
        "identifier": [
          {
            "system": "http://jpfhir.jp/fhir/core/IdSystem/insurance-medical-institution-no",
            "value": "1319876543"
          }
        ],
        "type": [
          {
            "coding": [
              {
                "system": "http://terminology.hl7.org/CodeSystem/organization-type",
                "code": "prov"
              }
            ]
          }
        ],
        "language": "ja",
        "extension": [
          {
            "url": "http://jpfhir.jp/fhir/core/Extension/StructureDefinition/JP_Organization_PrefectureNo",
            "valueCoding": {
              "system": "urn:oid:1.2.392.100495.20.3.21",
              "code": "13"
            }
          },
          {
            "url": "http://jpfhir.jp/fhir/core/Extension/StructureDefinition/JP_Organization_InsuranceOrganizationCategory",
            "valueCoding": {
              "system": "urn:oid:1.2.392.100495.20.3.22",
              "code": "1"
            }
          },
          {
            "url": "http://jpfhir.jp/fhir/core/Extension/StructureDefinition/JP_Organization_InsuranceOrganizationNo",
            "valueIdentifier": {
              "system": "urn:oid:1.2.392.100495.20.3.23",
              "value": "9876543"
            }
          },
          {
            "url": "http://jpfhir.jp/fhir/eCS/Extension/StructureDefinition/JP_eCS_Department",
            "valueCodeableConcept": {
              "coding": [
                {
                  "code": "26",
                  "system": "urn:oid:1.2.392.200250.2.2.2",
                  "display": "眼科"
                }
              ]
            }
          }
        ],
        "name": "港診療所",
        "telecom": [
          {
            "system": "phone",
            "value": "03-9876-5432"
          }
        ],
        "address": [
          {
            "text": "東京都港区新橋１−２−３",
            "postalCode": "106-9900",
            "country": "JP"
          }
        ]
      }
    },
    {
      "fullUrl": "urn:uuid:a44951be-cdaa-4c53-9e35-6be013da5441",
      "resource": {
        "resourceType": "Organization",
        "id": "Example-JP-Org-eCS-ReferralTo01Inline",
        "meta": {
          "lastUpdated": "2021-11-26T10:00:00+09:00",
          "profile": [
            "http://jpfhir.jp/fhir/eCS/StructureDefinition/JP_Organization_eCS"
          ]
        },
        "identifier": [
          {
            "system": "http://jpfhir.jp/fhir/core/IdSystem/insurance-medical-institution-no",
            "value": "1311234567"
          }
        ],
        "type": [
          {
            "coding": [
              {
                "system": "http://terminology.hl7.org/CodeSystem/organization-type",
                "code": "prov"
              }
            ]
          }
        ],
        "language": "ja",
        "extension": [
          {
            "url": "http://jpfhir.jp/fhir/core/Extension/StructureDefinition/JP_Organization_PrefectureNo",
            "valueCoding": {
              "system": "urn:oid:1.2.392.100495.20.3.21",
              "code": "13"
            }
          },
          {
            "url": "http://jpfhir.jp/fhir/core/Extension/StructureDefinition/JP_Organization_InsuranceOrganizationCategory",
            "valueCoding": {
              "system": "urn:oid:1.2.392.100495.20.3.22",
              "code": "1"
            }
          },
          {
            "url": "http://jpfhir.jp/fhir/core/Extension/StructureDefinition/JP_Organization_InsuranceOrganizationNo",
            "valueIdentifier": {
              "system": "urn:oid:1.2.392.100495.20.3.23",
              "value": "1234567"
            }
          },
          {
            "url": "http://jpfhir.jp/fhir/eCS/Extension/StructureDefinition/JP_eCS_Department",
            "valueCodeableConcept": {
              "coding": [
                {
                  "code": "081",
                  "system": "urn:oid:1.2.392.200250.2.2.2",
                  "display": "循環器内科"
                }
              ]
            }
          }
        ],
        "name": "東京第一テスト病院",
        "telecom": [
          {
            "system": "phone",
            "value": "03-1234-5678"
          }
        ],
        "address": [
          {
            "text": "東京都文京区文京町１−２−３",
            "postalCode": "113-0001",
            "country": "JP"
          }
        ]
      }
    },
    {
      "fullUrl": "urn:uuid:3acc3dc7-c79b-41f1-8eea-ac4de9b664b8",
      "resource": {
        "resourceType": "Encounter",
        "id": "Example-JP-Encounter-eCS-purpose-Referral01Inline",
        "meta": {
          "lastUpdated": "2021-11-26T10:00:00+09:00",
          "profile": [
            "http://jpfhir.jp/fhir/eCS/StructureDefinition/JP_Encounter_eCS"
          ]
        },
        "status": "finished",
        "class": {
          "system": "http://terminology.hl7.org/CodeSystem/v3-ActCode",
          "code": "AMB",
          "display": "外来"
        },
        "language": "ja",
        "identifier": [
          {
            "system": "http://jpfhir.jp/fhir/core/IdSystem/resourceInstance-identifier",
            "value": "192837"
          }
        ],
        "reasonCode": [
          {
            "text": "腹痛精査お願いします。"
          }
        ]
      }
    },
    {
      "fullUrl": "urn:uuid:6a31db8e-109d-4349-b0cf-095131c3307a",
      "resource": {
        "resourceType": "Condition",
        "id": "Example-JP-Condition-eCS-cc1-Referral01Inline",
        "meta": {
          "lastUpdated": "2021-11-26T10:00:00+09:00",
          "profile": [
            "http://jpfhir.jp/fhir/eCS/StructureDefinition/JP_Condition_eCS"
          ]
        },
        "identifier": [
          {
            "system": "http://jpfhir.jp/fhir/core/IdSystem/resourceInstance-identifier",
            "value": "192837-01"
          }
        ],
        "code": {
          "coding": [
            {
              "system": "urn:oid:1.2.392.200119.4.101.2",
              "code": "20065011",
              "display": "上腹部痛"
            }
          ],
          "text": "上腹部痛"
        },
        "language": "ja",
        "clinicalStatus": {
          "coding": [
            {
              "code": "active",
              "system": "http://terminology.hl7.org/CodeSystem/condition-clinical"
            }
          ]
        },
        "verificationStatus": {
          "coding": [
            {
              "code": "confirmed",
              "system": "http://terminology.hl7.org/CodeSystem/condition-ver-status"
            }
          ]
        },
        "category": [
          {
            "coding": [
              {
                "code": "problem-list-item",
                "system": "http://terminology.hl7.org/CodeSystem/condition-category"
              }
            ]
          }
        ],
        "subject": {
          "reference": "urn:uuid:0a48a4bf-0d87-4efb-aafd-d45e0842a4dd"
        },
        "onsetDateTime": "2022-06-09"
      }
    },
    {
      "fullUrl": "urn:uuid:a9358f3e-c743-4998-aa89-1be54c31b432",
      "resource": {
        "resourceType": "Condition",
        "id": "Example-JP-Condition-eCS-cc2-Referral01Inline",
        "meta": {
          "lastUpdated": "2021-11-26T10:00:00+09:00",
          "profile": [
            "http://jpfhir.jp/fhir/eCS/StructureDefinition/JP_Condition_eCS"
          ]
        },
        "identifier": [
          {
            "system": "http://jpfhir.jp/fhir/core/IdSystem/resourceInstance-identifier",
            "value": "192837-02"
          }
        ],
        "code": {
          "coding": [
            {
              "system": "urn:oid:1.2.392.200119.4.101.2",
              "code": "20075383",
              "display": "腹痛症"
            }
          ],
          "text": "腰痛"
        },
        "clinicalStatus": {
          "coding": [
            {
              "code": "active",
              "system": "http://terminology.hl7.org/CodeSystem/condition-clinical"
            }
          ]
        },
        "verificationStatus": {
          "coding": [
            {
              "code": "confirmed",
              "system": "http://terminology.hl7.org/CodeSystem/condition-ver-status"
            }
          ]
        },
        "category": [
          {
            "coding": [
              {
                "code": "problem-list-item",
                "system": "http://terminology.hl7.org/CodeSystem/condition-category"
              }
            ]
          }
        ],
        "subject": {
          "reference": "urn:uuid:0a48a4bf-0d87-4efb-aafd-d45e0842a4dd"
        },
        "onsetDateTime": "2022-05"
      }
    },
    {
      "fullUrl": "urn:uuid:5eab50b2-6741-467c-a2fd-a4adab1f835f",
      "resource": {
        "resourceType": "Condition",
        "id": "Example-JP-Condition-eCS-ABDPAINInline",
        "meta": {
          "lastUpdated": "2021-11-26T10:00:00+09:00",
          "profile": [
            "http://jpfhir.jp/fhir/eCS/StructureDefinition/JP_Condition_eCS"
          ]
        },
        "identifier": [
          {
            "system": "http://jpfhir.jp/fhir/core/IdSystem/resourceInstance-identifier",
            "value": "192838"
          }
        ],
        "code": {
          "coding": [
            {
              "system": "urn:oid:1.2.392.200119.4.101.2",
              "code": "20065011",
              "display": "上腹部痛"
            }
          ],
          "text": "上腹部痛"
        },
        "extension": [
          {
            "url": "http://jpfhir.jp/fhir/clins/Extension/StructureDefinition/JP_eCS_InstitutionNumber",
            "valueIdentifier": {
              "system": "http://jpfhir.jp/fhir/core/IdSystem/insurance-medical-institution-no",
              "value": "1318814790"
            }
          },
          {
            "url": "http://jpfhir.jp/fhir/eCS/Extension/StructureDefinition/JP_eCS_Department",
            "valueCodeableConcept": {
              "coding": [
                {
                  "code": "08",
                  "system": "urn:oid:1.2.392.200250.2.2.2",
                  "display": "循環器科"
                }
              ],
              "text": "循環器診療科"
            }
          }
        ],
        "language": "ja",
        "contained": [
          {
            "resourceType": "Encounter",
            "id": "Example-Contained-JP-Encounter-AMB",
            "meta": {
              "profile": [
                "http://jpfhir.jp/fhir/core/StructureDefinition/JP_Encounter"
              ]
            },
            "language": "ja",
            "identifier": [
              {
                "system": "http://jpfhir.jp/fhir/core/IdSystem/resourceInstance-identifier",
                "value": "192844"
              }
            ],
            "status": "finished",
            "class": {
              "system": "http://terminology.hl7.org/CodeSystem/v3-ActCode",
              "code": "AMB",
              "display": "外来"
            }
          }
        ],
        "clinicalStatus": {
          "coding": [
            {
              "code": "active",
              "system": "http://terminology.hl7.org/CodeSystem/condition-clinical"
            }
          ]
        },
        "verificationStatus": {
          "coding": [
            {
              "code": "confirmed",
              "system": "http://terminology.hl7.org/CodeSystem/condition-ver-status"
            }
          ]
        },
        "category": [
          {
            "coding": [
              {
                "code": "encounter-diagnosis",
                "system": "http://terminology.hl7.org/CodeSystem/condition-category"
              }
            ]
          }
        ],
        "subject": {
          "reference": "urn:uuid:0a48a4bf-0d87-4efb-aafd-d45e0842a4dd"
        },
        "encounter": {
          "reference": "#Example-Contained-JP-Encounter-AMB"
        },
        "note": [
          {
            "text": "２０２２年６月上旬から夜食後に時々上腹部痛があり、だんだんひどくなっている。他に目立った症状なし。"
          }
        ]
      }
    },
    {
      "fullUrl": "urn:uuid:5c650562-f4e4-40b3-87c6-e9a0376be7a8",
      "resource": {
        "resourceType": "Condition",
        "id": "Example-JP-Condition-eCS-ANGINAInline",
        "meta": {
          "lastUpdated": "2021-11-26T10:00:00+09:00",
          "profile": [
            "http://jpfhir.jp/fhir/eCS/StructureDefinition/JP_Condition_eCS"
          ]
        },
        "identifier": [
          {
            "system": "http://jpfhir.jp/fhir/core/IdSystem/resourceInstance-identifier",
            "value": "192839-01"
          }
        ],
        "code": {
          "coding": [
            {
              "system": "urn:oid:1.2.392.200119.4.101.2",
              "code": "20058911",
              "display": "狭心症"
            }
          ],
          "text": "狭心症"
        },
        "language": "ja",
        "clinicalStatus": {
          "coding": [
            {
              "code": "resolved",
              "system": "http://terminology.hl7.org/CodeSystem/condition-clinical"
            }
          ]
        },
        "verificationStatus": {
          "coding": [
            {
              "code": "confirmed",
              "system": "http://terminology.hl7.org/CodeSystem/condition-ver-status"
            }
          ]
        },
        "category": [
          {
            "coding": [
              {
                "code": "encounter-diagnosis",
                "system": "http://terminology.hl7.org/CodeSystem/condition-category"
              }
            ]
          }
        ],
        "subject": {
          "reference": "urn:uuid:0a48a4bf-0d87-4efb-aafd-d45e0842a4dd"
        },
        "onsetDateTime": "2018",
        "note": [
          {
            "text": "2018年　狭心症　２ヶ月治療で軽快。"
          }
        ]
      }
    },
    {
      "fullUrl": "urn:uuid:a28198b9-6a23-4677-ba2e-5eb3e17d9792",
      "resource": {
        "resourceType": "Condition",
        "id": "Example-JP-Condition-eCS-FxInline",
        "meta": {
          "lastUpdated": "2021-11-26T10:00:00+09:00",
          "profile": [
            "http://jpfhir.jp/fhir/eCS/StructureDefinition/JP_Condition_eCS"
          ]
        },
        "identifier": [
          {
            "system": "http://jpfhir.jp/fhir/core/IdSystem/resourceInstance-identifier",
            "value": "192839-02"
          }
        ],
        "code": {
          "coding": [
            {
              "system": "urn:oid:1.2.392.200119.4.101.2",
              "code": "20080427",
              "display": "前腕骨折"
            }
          ],
          "extension": [
            {
              "url": "http://jpfhir.jp/fhir/core/Extension/StructureDefinition/JP_Condition_DiseasePrefixModifier",
              "valueCodeableConcept": {
                "coding": [
                  {
                    "system": "urn:oid:1.2.392.200119.4.201.2",
                    "code": "27000358",
                    "display": "左"
                  }
                ]
              }
            }
          ],
          "text": "左前腕骨折"
        },
        "language": "ja",
        "clinicalStatus": {
          "coding": [
            {
              "code": "resolved",
              "system": "http://terminology.hl7.org/CodeSystem/condition-clinical"
            }
          ]
        },
        "verificationStatus": {
          "coding": [
            {
              "code": "confirmed",
              "system": "http://terminology.hl7.org/CodeSystem/condition-ver-status"
            }
          ]
        },
        "category": [
          {
            "coding": [
              {
                "code": "encounter-diagnosis",
                "system": "http://terminology.hl7.org/CodeSystem/condition-category"
              }
            ]
          }
        ],
        "subject": {
          "reference": "urn:uuid:0a48a4bf-0d87-4efb-aafd-d45e0842a4dd"
        },
        "onsetDateTime": "2021",
        "note": [
          {
            "text": "交通事故で左前腕骨折　３ヶ月ギプス固定。"
          }
        ]
      }
    },
    {
      "fullUrl": "urn:uuid:711b07ae-d20b-40b0-9aa9-c7f1981409e6",
      "resource": {
        "resourceType": "AllergyIntolerance",
        "id": "Example-JP-AllergyIntolerance-eCS-01Inline",
        "meta": {
          "lastUpdated": "2023-04-01T10:00:00+09:00",
          "profile": [
            "http://jpfhir.jp/fhir/eCS/StructureDefinition/JP_AllergyIntolerance_eCS"
          ],
          "tag": [
            {
              "code": "LTS",
              "system": "http://jpfhir.jp/fhir/clins/CodeSystem/JP_ehrshrs_indication",
              "display": "長期保存"
            }
          ]
        },
        "identifier": [
          {
            "system": "http://jpfhir.jp/fhir/core/IdSystem/resourceInstance-identifier",
            "value": "102934701"
          }
        ],
        "extension": [
          {
            "url": "http://jpfhir.jp/fhir/clins/Extension/StructureDefinition/JP_eCS_InstitutionNumber",
            "valueIdentifier": {
              "system": "http://jpfhir.jp/fhir/core/IdSystem/insurance-medical-institution-no",
              "value": "1318814790"
            }
          }
        ],
        "text": {
          "status": "additional",
          "div": "<div xmlns=\"http://www.w3.org/1999/xhtml\"><p>アレルギー: さば</p></div>"
        },
        "clinicalStatus": {
          "coding": [
            {
              "code": "active",
              "system": "http://terminology.hl7.org/CodeSystem/allergyintolerance-clinical",
              "display": "Active"
            }
          ]
        },
        "code": {
          "coding": [
            {
              "code": "J9FC11310000",
              "system": "http://jpfhir.jp/fhir/core/CodeSystem/JP_JfagyFoodAllergen_CS",
              "display": "さば"
            }
          ],
          "text": "さば"
        },
        "patient": {
          "reference": "urn:uuid:0a48a4bf-0d87-4efb-aafd-d45e0842a4dd"
        }
      }
    },
    {
      "fullUrl": "urn:uuid:5a1aae74-f720-415a-ba15-a6c8b5d4c5a1",
      "resource": {
        "resourceType": "AllergyIntolerance",
        "id": "Example-JP-AllergyIntolerance-eCS-02Inline",
        "meta": {
          "lastUpdated": "2023-04-01T10:00:00+09:00",
          "profile": [
            "http://jpfhir.jp/fhir/eCS/StructureDefinition/JP_AllergyIntolerance_eCS"
          ],
          "tag": [
            {
              "code": "LTS",
              "system": "http://jpfhir.jp/fhir/clins/CodeSystem/JP_ehrshrs_indication",
              "display": "長期保存"
            }
          ]
        },
        "identifier": [
          {
            "system": "http://jpfhir.jp/fhir/core/IdSystem/resourceInstance-identifier",
            "value": "102934702"
          }
        ],
        "extension": [
          {
            "url": "http://jpfhir.jp/fhir/clins/Extension/StructureDefinition/JP_eCS_InstitutionNumber",
            "valueIdentifier": {
              "system": "http://jpfhir.jp/fhir/core/IdSystem/insurance-medical-institution-no",
              "value": "1318814790"
            }
          }
        ],
        "text": {
          "status": "additional",
          "div": "<div xmlns=\"http://www.w3.org/1999/xhtml\"><p>アレルギー:キーウイ</p>発症:2020-04-10 情報源：本人　記録：2024-07-10　記録者：看護師A</div>"
        },
        "clinicalStatus": {
          "coding": [
            {
              "code": "active",
              "system": "http://terminology.hl7.org/CodeSystem/allergyintolerance-clinical",
              "display": "Active"
            }
          ]
        },
        "verificationStatus": {
          "coding": [
            {
              "code": "confirmed",
              "system": "http://terminology.hl7.org/CodeSystem/allergyintolerance-verification",
              "display": "Confirmed"
            }
          ]
        },
        "category": [
          "food"
        ],
        "code": {
          "coding": [
            {
              "code": "J9FA32540000",
              "system": "http://jpfhir.jp/fhir/core/CodeSystem/JP_JfagyFoodAllergen_CS",
              "display": "キウイフルーツ",
              "version": "20240709"
            }
          ],
          "text": "キーウイ"
        },
        "patient": {
          "reference": "urn:uuid:0a48a4bf-0d87-4efb-aafd-d45e0842a4dd"
        },
        "encounter": {
          "reference": "urn:uuid:7cad1f19-3435-451d-9a71-a81b61f3358e"
        },
        "onsetDateTime": "2020-04-10",
        "recordedDate": "2024-07-10",
        "recorder": {
          "display": "看護師A"
        },
        "asserter": {
          "display": "本人"
        },
        "note": [
          {
            "text": "食べると口の周りが痺れる感じ"
          }
        ]
      }
    },
    {
      "fullUrl": "urn:uuid:0d51bf2a-4863-b36f-2ad3-cb5ea0df1023",
      "resource": {
        "resourceType": "AllergyIntolerance",
        "id": "Example-JP-AllergyIntolerance-eCS-03Inline",
        "meta": {
          "lastUpdated": "2023-04-01T10:00:00+09:00",
          "profile": [
            "http://jpfhir.jp/fhir/eCS/StructureDefinition/JP_AllergyIntolerance_eCS"
          ],
          "tag": [
            {
              "code": "LTS",
              "system": "http://jpfhir.jp/fhir/clins/CodeSystem/JP_ehrshrs_indication",
              "display": "長期保存"
            }
          ]
        },
        "identifier": [
          {
            "system": "http://jpfhir.jp/fhir/core/IdSystem/resourceInstance-identifier",
            "value": "102934703"
          }
        ],
        "extension": [
          {
            "url": "http://jpfhir.jp/fhir/clins/Extension/StructureDefinition/JP_eCS_InstitutionNumber",
            "valueIdentifier": {
              "system": "http://jpfhir.jp/fhir/core/IdSystem/insurance-medical-institution-no",
              "value": "1318814790"
            }
          }
        ],
        "text": {
          "status": "additional",
          "div": "<div xmlns=\"http://www.w3.org/1999/xhtml\"><p>ポビドンヨード含嗽後に嘔吐と全身に発疹</p></div>"
        },
        "clinicalStatus": {
          "coding": [
            {
              "code": "active",
              "system": "http://terminology.hl7.org/CodeSystem/allergyintolerance-clinical",
              "display": "Active"
            }
          ]
        },
        "category": [
          "medication"
        ],
        "code": {
          "coding": [
            {
              "code": "GCM2260701F1ZZZ",
              "system": "http://jpfhir.jp/fhir/core/CodeSystem/JP_JfagyMedicationAllergen_CS",
              "display": "ポビドンヨード含嗽用液７％"
            }
          ],
          "text": "ヨードうがい液"
        },
        "patient": {
          "reference": "urn:uuid:0a48a4bf-0d87-4efb-aafd-d45e0842a4dd"
        },
        "encounter": {
          "reference": "urn:uuid:7cad1f19-3435-451d-9a71-a81b61f3358e"
        },
        "note": [
          {
            "text": "ポビドンヨード含嗽後に嘔吐と全身に発疹"
          }
        ]
      }
    },
    {
      "fullUrl": "urn:uuid:481835ef-0891-45de-a006-087954ab6b7c",
      "resource": {
        "resourceType": "Observation",
        "id": "psExample-JP-Obs-Common-eCS-textOnly01Inline",
        "meta": {
          "lastUpdated": "2021-11-26T10:00:00+09:00",
          "profile": [
            "http://jpfhir.jp/fhir/eCS/StructureDefinition/JP_Observation_Common_eCS"
          ]
        },
        "language": "ja",
        "contained": [
          {
            "resourceType": "Practitioner",
            "id": "Example-Contained-JP-Practitioner-minimun-D002",
            "meta": {
              "profile": [
                "http://jpfhir.jp/fhir/core/StructureDefinition/JP_Practitioner"
              ]
            },
            "language": "ja",
            "identifier": [
              {
                "system": "urn:oid:1.2.392.100495.20.3.41.11311234567",
                "value": "D001"
              }
            ],
            "name": [
              {
                "extension": [
                  {
                    "url": "http://hl7.org/fhir/StructureDefinition/iso21090-EN-representation",
                    "valueCode": "IDE"
                  }
                ],
                "text": "田中 宏"
              }
            ]
          }
        ],
        "identifier": [
          {
            "system": "http://jpfhir.jp/fhir/core/IdSystem/resourceInstance-identifier",
            "value": "192837"
          }
        ],
        "status": "final",
        "category": [
          {
            "coding": [
              {
                "code": "exam",
                "system": "http://jpfhir.jp/fhir/core/CodeSystem/JP_SimpleObservationCategory_CS",
                "display": "Exam"
              }
            ]
          }
        ],
        "code": {
          "text": "腹部所見"
        },
        "subject": {
          "reference": "urn:uuid:0a48a4bf-0d87-4efb-aafd-d45e0842a4dd"
        },
        "effectiveDateTime": "2021-07-05T11:19:41+09:00",
        "performer": [
          {
            "reference": "#Example-Contained-JP-Practitioner-minimun-D002"
          }
        ],
        "valueString": "上腹部圧痛あり、その他特に所見なし。"
      }
    },
    {
      "fullUrl": "urn:uuid:a6e4fc73-a749-4583-94a7-18e4241b4c75",
      "resource": {
        "resourceType": "DocumentReference",
        "id": "Example-JP-DocRef-eCS-clinical-ccourse-Referral01Inline",
        "meta": {
          "lastUpdated": "2023-03-31T00:00:00+09:00",
          "profile": [
            "http://jpfhir.jp/fhir/eCS/StructureDefinition/JP_DocumentReference_eCS"
          ]
        },
        "language": "ja",
        "status": "current",
        "type": {
          "coding": [
            {
              "system": "http://loinc.org",
              "code": "11506-3",
              "display": "Progress note"
            }
          ]
        },
        "description": "臨床経過",
        "content": [
          {
            "attachment": {
              "contentType": "application/pdf",
              "url": "file:///clinicalCourseExampleData.pdf"
            }
          }
        ]
      }
    }
  ]
}
